# Wavelength (nm)	F2 Net System Transmission with HK Filter (BARR ED152; Gemini ID HK_G0806) (1=100%)
1150.00 0.0001
1150.50 0.0001
1151.00 0.0001
1151.50 0.0000
1152.00 0.0001
1152.50 0.0001
1153.00 0.0001
1153.50 0.0001
1154.00 0.0000
1154.50 0.0001
1155.00 0.0000
1155.50 0.0001
1156.00 0.0001
1156.50 0.0000
1157.00 0.0001
1157.50 0.0000
1158.00 0.0001
1158.50 0.0001
1159.00 0.0000
1159.50 0.0000
1160.00 0.0001
1160.50 0.0001
1161.00 0.0000
1161.50 0.0001
1162.00 0.0001
1162.50 0.0001
1163.00 0.0001
1163.50 0.0000
1164.00 0.0001
1164.50 0.0001
1165.00 0.0001
1165.50 0.0001
1166.00 0.0001
1166.50 0.0000
1167.00 0.0000
1167.50 0.0001
1168.00 0.0001
1168.50 0.0000
1169.00 0.0001
1169.50 0.0000
1170.00 0.0001
1170.50 0.0000
1171.00 0.0000
1171.50 0.0000
1172.00 0.0001
1172.50 0.0000
1173.00 0.0001
1173.50 0.0001
1174.00 0.0000
1174.50 0.0001
1175.00 0.0001
1175.50 0.0001
1176.00 0.0001
1176.50 0.0001
1177.00 0.0001
1177.50 0.0001
1178.00 0.0001
1178.50 0.0000
1179.00 0.0000
1179.50 0.0001
1180.00 0.0001
1180.50 0.0001
1181.00 0.0000
1181.50 0.0001
1182.00 0.0001
1182.50 0.0001
1183.00 0.0001
1183.50 0.0000
1184.00 0.0001
1184.50 0.0001
1185.00 0.0001
1185.50 0.0000
1186.00 0.0000
1186.50 0.0001
1187.00 0.0001
1187.50 0.0001
1188.00 0.0001
1188.50 0.0001
1189.00 0.0000
1189.50 0.0000
1190.00 0.0000
1190.50 0.0000
1191.00 0.0001
1191.50 0.0001
1192.00 0.0001
1192.50 0.0000
1193.00 0.0001
1193.50 0.0001
1194.00 0.0000
1194.50 0.0001
1195.00 0.0001
1195.50 0.0001
1196.00 0.0001
1196.50 0.0001
1197.00 0.0000
1197.50 0.0001
1198.00 0.0001
1198.50 0.0001
1199.00 0.0000
1199.50 0.0001
1200.00 0.0001
1200.50 0.0001
1201.00 0.0001
1201.50 0.0000
1202.00 0.0001
1202.50 0.0001
1203.00 0.0001
1203.50 0.0001
1204.00 0.0001
1204.50 0.0000
1205.00 0.0000
1205.50 0.0000
1206.00 0.0001
1206.50 0.0001
1207.00 0.0001
1207.50 0.0001
1208.00 0.0001
1208.50 0.0001
1209.00 0.0001
1209.50 0.0000
1210.00 0.0001
1210.50 0.0001
1211.00 0.0001
1211.50 0.0001
1212.00 0.0001
1212.50 0.0001
1213.00 0.0001
1213.50 0.0001
1214.00 0.0001
1214.50 0.0001
1215.00 0.0001
1215.50 0.0001
1216.00 0.0001
1216.50 0.0001
1217.00 0.0001
1217.50 0.0001
1218.00 0.0001
1218.50 0.0001
1219.00 0.0001
1219.50 0.0001
1220.00 0.0001
1220.50 0.0001
1221.00 0.0001
1221.50 0.0001
1222.00 0.0001
1222.50 0.0002
1223.00 0.0001
1223.50 0.0001
1224.00 0.0002
1224.50 0.0002
1225.00 0.0002
1225.50 0.0002
1226.00 0.0002
1226.50 0.0002
1227.00 0.0002
1227.50 0.0003
1228.00 0.0003
1228.50 0.0003
1229.00 0.0004
1229.50 0.0003
1230.00 0.0004
1230.50 0.0004
1231.00 0.0005
1231.50 0.0004
1232.00 0.0006
1232.50 0.0006
1233.00 0.0006
1233.50 0.0007
1234.00 0.0009
1234.50 0.0009
1235.00 0.0011
1235.50 0.0011
1236.00 0.0012
1236.50 0.0014
1237.00 0.0015
1237.50 0.0017
1238.00 0.0019
1238.50 0.0021
1239.00 0.0024
1239.50 0.0027
1240.00 0.0030
1240.50 0.0034
1241.00 0.0038
1241.50 0.0042
1242.00 0.0048
1242.50 0.0054
1243.00 0.0060
1243.50 0.0068
1244.00 0.0077
1244.50 0.0087
1245.00 0.0098
1245.50 0.0111
1246.00 0.0125
1246.50 0.0142
1247.00 0.0162
1247.50 0.0183
1248.00 0.0207
1248.50 0.0234
1249.00 0.0264
1249.50 0.0299
1250.00 0.0337
1250.50 0.0383
1251.00 0.0431
1251.50 0.0488
1252.00 0.0552
1252.50 0.0621
1253.00 0.0703
1253.50 0.0793
1254.00 0.0894
1254.50 0.1007
1255.00 0.1135
1255.50 0.1278
1256.00 0.1434
1256.50 0.1614
1257.00 0.1807
1257.50 0.2016
1258.00 0.2241
1258.50 0.2474
1259.00 0.2729
1259.50 0.2985
1260.00 0.3258
1260.50 0.3536
1261.00 0.3803
1261.50 0.4061
1262.00 0.4312
1262.50 0.4567
1263.00 0.4791
1263.50 0.5006
1264.00 0.5199
1264.50 0.5370
1265.00 0.5513
1265.50 0.5637
1266.00 0.5753
1266.50 0.5836
1267.00 0.5900
1267.50 0.5955
1268.00 0.6005
1268.50 0.6044
1269.00 0.6077
1269.50 0.6114
1270.00 0.6149
1270.50 0.6175
1271.00 0.6203
1271.50 0.6240
1272.00 0.6271
1272.50 0.6297
1273.00 0.6319
1273.50 0.6351
1274.00 0.6378
1274.50 0.6394
1275.00 0.6419
1275.50 0.6448
1276.00 0.6459
1276.50 0.6481
1277.00 0.6507
1277.50 0.6525
1278.00 0.6538
1278.50 0.6552
1279.00 0.6565
1279.50 0.6572
1280.00 0.6568
1280.50 0.6573
1281.00 0.6580
1281.50 0.6569
1282.00 0.6556
1282.50 0.6541
1283.00 0.6516
1283.50 0.6481
1284.00 0.6456
1284.50 0.6429
1285.00 0.6397
1285.50 0.6354
1286.00 0.6320
1286.50 0.6292
1287.00 0.6258
1287.50 0.6218
1288.00 0.6183
1288.50 0.6136
1289.00 0.6083
1289.50 0.6030
1290.00 0.5990
1290.50 0.5942
1291.00 0.5889
1291.50 0.5843
1292.00 0.5800
1292.50 0.5744
1293.00 0.5693
1293.50 0.5646
1294.00 0.5606
1294.50 0.5551
1295.00 0.5507
1295.50 0.5472
1296.00 0.5440
1296.50 0.5419
1297.00 0.5406
1297.50 0.5405
1298.00 0.5399
1298.50 0.5392
1299.00 0.5404
1299.50 0.5417
1300.00 0.5422
1300.50 0.5447
1301.00 0.5480
1301.50 0.5517
1302.00 0.5548
1302.50 0.5595
1303.00 0.5647
1303.50 0.5691
1304.00 0.5745
1304.50 0.5815
1305.00 0.5885
1305.50 0.5947
1306.00 0.6006
1306.50 0.6084
1307.00 0.6153
1307.50 0.6216
1308.00 0.6285
1308.50 0.6359
1309.00 0.6418
1309.50 0.6468
1310.00 0.6525
1310.50 0.6576
1311.00 0.6602
1311.50 0.6626
1312.00 0.6653
1312.50 0.6659
1313.00 0.6644
1313.50 0.6639
1314.00 0.6631
1314.50 0.6602
1315.00 0.6567
1315.50 0.6541
1316.00 0.6509
1316.50 0.6471
1317.00 0.6440
1317.50 0.6420
1318.00 0.6387
1318.50 0.6351
1319.00 0.6331
1319.50 0.6313
1320.00 0.6289
1320.50 0.6263
1321.00 0.6254
1321.50 0.6239
1322.00 0.6224
1322.50 0.6214
1323.00 0.6221
1323.50 0.6218
1324.00 0.6220
1324.50 0.6232
1325.00 0.6252
1325.50 0.6265
1326.00 0.6284
1326.50 0.6321
1327.00 0.6355
1327.50 0.6381
1328.00 0.6414
1328.50 0.6447
1329.00 0.6474
1329.50 0.6492
1330.00 0.6524
1330.50 0.6561
1331.00 0.6585
1331.50 0.6610
1332.00 0.6641
1332.50 0.6664
1333.00 0.6669
1333.50 0.6678
1334.00 0.6696
1334.50 0.6688
1335.00 0.6673
1335.50 0.6671
1336.00 0.6661
1336.50 0.6648
1337.00 0.6632
1337.50 0.6629
1338.00 0.6618
1338.50 0.6598
1339.00 0.6585
1339.50 0.6580
1340.00 0.6564
1340.50 0.6541
1341.00 0.6533
1341.50 0.6526
1342.00 0.6506
1342.50 0.6501
1343.00 0.6505
1343.50 0.6501
1344.00 0.6498
1344.50 0.6493
1345.00 0.6501
1345.50 0.6496
1346.00 0.6490
1346.50 0.6500
1347.00 0.6508
1347.50 0.6506
1348.00 0.6513
1348.50 0.6534
1349.00 0.6557
1349.50 0.6561
1350.00 0.6581
1350.50 0.6613
1351.00 0.6630
1351.50 0.6643
1352.00 0.6665
1352.50 0.6660
1353.00 0.6645
1353.50 0.6623
1354.00 0.6614
1354.50 0.6601
1355.00 0.6573
1355.50 0.6549
1356.00 0.6536
1356.50 0.6508
1357.00 0.6473
1357.50 0.6448
1358.00 0.6418
1358.50 0.6372
1359.00 0.6330
1359.50 0.6295
1360.00 0.6257
1360.50 0.6216
1361.00 0.6178
1361.50 0.6141
1362.00 0.6091
1362.50 0.6046
1363.00 0.6015
1363.50 0.5987
1364.00 0.5941
1364.50 0.5898
1365.00 0.5863
1365.50 0.5838
1366.00 0.5809
1366.50 0.5793
1367.00 0.5782
1367.50 0.5759
1368.00 0.5741
1368.50 0.5740
1369.00 0.5736
1369.50 0.5730
1370.00 0.5729
1370.50 0.5729
1371.00 0.5732
1371.50 0.5730
1372.00 0.5734
1372.50 0.5779
1373.00 0.5809
1373.50 0.5844
1374.00 0.5897
1374.50 0.5941
1375.00 0.5981
1375.50 0.6024
1376.00 0.6077
1376.50 0.6124
1377.00 0.6168
1377.50 0.6216
1378.00 0.6269
1378.50 0.6295
1379.00 0.6322
1379.50 0.6352
1380.00 0.6389
1380.50 0.6438
1381.00 0.6489
1381.50 0.6541
1382.00 0.6579
1382.50 0.6618
1383.00 0.6664
1383.50 0.6700
1384.00 0.6729
1384.50 0.6738
1385.00 0.6747
1385.50 0.6754
1386.00 0.6751
1386.50 0.6751
1387.00 0.6756
1387.50 0.6747
1388.00 0.6728
1388.50 0.6719
1389.00 0.6714
1389.50 0.6691
1390.00 0.6674
1390.50 0.6654
1391.00 0.6632
1391.50 0.6603
1392.00 0.6574
1392.50 0.6553
1393.00 0.6538
1393.50 0.6521
1394.00 0.6504
1394.50 0.6489
1395.00 0.6461
1395.50 0.6439
1396.00 0.6419
1396.50 0.6399
1397.00 0.6375
1397.50 0.6364
1398.00 0.6352
1398.50 0.6346
1399.00 0.6335
1399.50 0.6329
1400.00 0.6329
1400.50 0.6330
1401.00 0.6340
1401.50 0.6350
1402.00 0.6373
1402.50 0.6385
1403.00 0.6400
1403.50 0.6422
1404.00 0.6444
1404.50 0.6455
1405.00 0.6478
1405.50 0.6502
1406.00 0.6520
1406.50 0.6539
1407.00 0.6561
1407.50 0.6588
1408.00 0.6606
1408.50 0.6635
1409.00 0.6668
1409.50 0.6702
1410.00 0.6726
1410.50 0.6759
1411.00 0.6796
1411.50 0.6827
1412.00 0.6850
1412.50 0.6868
1413.00 0.6888
1413.50 0.6895
1414.00 0.6905
1414.50 0.6910
1415.00 0.6909
1415.50 0.6906
1416.00 0.6898
1416.50 0.6904
1417.00 0.6905
1417.50 0.6894
1418.00 0.6888
1418.50 0.6878
1419.00 0.6853
1419.50 0.6830
1420.00 0.6816
1420.50 0.6797
1421.00 0.6770
1421.50 0.6748
1422.00 0.6732
1422.50 0.6716
1423.00 0.6692
1423.50 0.6673
1424.00 0.6659
1424.50 0.6653
1425.00 0.6638
1425.50 0.6638
1426.00 0.6640
1426.50 0.6636
1427.00 0.6643
1427.50 0.6655
1428.00 0.6663
1428.50 0.6663
1429.00 0.6673
1429.50 0.6689
1430.00 0.6694
1430.50 0.6692
1431.00 0.6697
1431.50 0.6705
1432.00 0.6703
1432.50 0.6712
1433.00 0.6734
1433.50 0.6754
1434.00 0.6760
1434.50 0.6782
1435.00 0.6803
1435.50 0.6814
1436.00 0.6823
1436.50 0.6849
1437.00 0.6874
1437.50 0.6889
1438.00 0.6907
1438.50 0.6919
1439.00 0.6925
1439.50 0.6922
1440.00 0.6929
1440.50 0.6937
1441.00 0.6933
1441.50 0.6920
1442.00 0.6927
1442.50 0.6932
1443.00 0.6933
1443.50 0.6940
1444.00 0.6952
1444.50 0.6949
1445.00 0.6940
1445.50 0.6939
1446.00 0.6944
1446.50 0.6948
1447.00 0.6954
1447.50 0.6965
1448.00 0.6978
1448.50 0.6960
1449.00 0.6947
1449.50 0.6948
1450.00 0.6935
1450.50 0.6927
1451.00 0.6930
1451.50 0.6938
1452.00 0.6934
1452.50 0.6939
1453.00 0.6953
1453.50 0.6963
1454.00 0.6965
1454.50 0.6982
1455.00 0.7012
1455.50 0.7038
1456.00 0.7053
1456.50 0.7071
1457.00 0.7092
1457.50 0.7102
1458.00 0.7113
1458.50 0.7131
1459.00 0.7141
1459.50 0.7142
1460.00 0.7151
1460.50 0.7190
1461.00 0.7220
1461.50 0.7247
1462.00 0.7280
1462.50 0.7324
1463.00 0.7354
1463.50 0.7379
1464.00 0.7422
1464.50 0.7442
1465.00 0.7443
1465.50 0.7455
1466.00 0.7474
1466.50 0.7466
1467.00 0.7455
1467.50 0.7448
1468.00 0.7443
1468.50 0.7436
1469.00 0.7429
1469.50 0.7426
1470.00 0.7426
1470.50 0.7409
1471.00 0.7401
1471.50 0.7398
1472.00 0.7386
1472.50 0.7355
1473.00 0.7342
1473.50 0.7330
1474.00 0.7304
1474.50 0.7269
1475.00 0.7249
1475.50 0.7222
1476.00 0.7187
1476.50 0.7151
1477.00 0.7121
1477.50 0.7090
1478.00 0.7051
1478.50 0.7040
1479.00 0.7039
1479.50 0.7018
1480.00 0.7009
1480.50 0.7009
1481.00 0.7001
1481.50 0.6991
1482.00 0.6992
1482.50 0.7005
1483.00 0.7010
1483.50 0.7018
1484.00 0.7032
1484.50 0.7040
1485.00 0.7039
1485.50 0.7040
1486.00 0.7053
1486.50 0.7063
1487.00 0.7054
1487.50 0.7067
1488.00 0.7080
1488.50 0.7098
1489.00 0.7111
1489.50 0.7138
1490.00 0.7160
1490.50 0.7178
1491.00 0.7196
1491.50 0.7217
1492.00 0.7240
1492.50 0.7261
1493.00 0.7280
1493.50 0.7314
1494.00 0.7334
1494.50 0.7346
1495.00 0.7373
1495.50 0.7397
1496.00 0.7405
1496.50 0.7413
1497.00 0.7424
1497.50 0.7430
1498.00 0.7434
1498.50 0.7414
1499.00 0.7404
1499.50 0.7385
1500.00 0.7359
1500.50 0.7380
1501.00 0.7404
1501.50 0.7413
1502.00 0.7423
1502.50 0.7444
1503.00 0.7463
1503.50 0.7475
1504.00 0.7489
1504.50 0.7500
1505.00 0.7502
1505.50 0.7499
1506.00 0.7504
1506.50 0.7509
1507.00 0.7503
1507.50 0.7498
1508.00 0.7496
1508.50 0.7494
1509.00 0.7489
1509.50 0.7482
1510.00 0.7487
1510.50 0.7488
1511.00 0.7479
1511.50 0.7481
1512.00 0.7481
1512.50 0.7488
1513.00 0.7489
1513.50 0.7495
1514.00 0.7505
1514.50 0.7509
1515.00 0.7506
1515.50 0.7519
1516.00 0.7528
1516.50 0.7522
1517.00 0.7526
1517.50 0.7532
1518.00 0.7534
1518.50 0.7540
1519.00 0.7554
1519.50 0.7569
1520.00 0.7575
1520.50 0.7579
1521.00 0.7592
1521.50 0.7604
1522.00 0.7610
1522.50 0.7615
1523.00 0.7630
1523.50 0.7641
1524.00 0.7644
1524.50 0.7633
1525.00 0.7625
1525.50 0.7611
1526.00 0.7593
1526.50 0.7590
1527.00 0.7598
1527.50 0.7591
1528.00 0.7588
1528.50 0.7607
1529.00 0.7630
1529.50 0.7646
1530.00 0.7659
1530.50 0.7683
1531.00 0.7695
1531.50 0.7701
1532.00 0.7720
1532.50 0.7725
1533.00 0.7722
1533.50 0.7717
1534.00 0.7719
1534.50 0.7722
1535.00 0.7719
1535.50 0.7708
1536.00 0.7715
1536.50 0.7725
1537.00 0.7719
1537.50 0.7728
1538.00 0.7744
1538.50 0.7744
1539.00 0.7740
1539.50 0.7749
1540.00 0.7753
1540.50 0.7741
1541.00 0.7732
1541.50 0.7733
1542.00 0.7726
1542.50 0.7721
1543.00 0.7728
1543.50 0.7739
1544.00 0.7742
1544.50 0.7730
1545.00 0.7738
1545.50 0.7741
1546.00 0.7732
1546.50 0.7716
1547.00 0.7715
1547.50 0.7705
1548.00 0.7685
1548.50 0.7695
1549.00 0.7720
1549.50 0.7732
1550.00 0.7734
1550.50 0.7711
1551.00 0.7689
1551.50 0.7655
1552.00 0.7620
1552.50 0.7595
1553.00 0.7567
1553.50 0.7520
1554.00 0.7490
1554.50 0.7496
1555.00 0.7489
1555.50 0.7478
1556.00 0.7484
1556.50 0.7476
1557.00 0.7453
1557.50 0.7433
1558.00 0.7429
1558.50 0.7417
1559.00 0.7395
1559.50 0.7383
1560.00 0.7379
1560.50 0.7377
1561.00 0.7364
1561.50 0.7371
1562.00 0.7380
1562.50 0.7377
1563.00 0.7370
1563.50 0.7385
1564.00 0.7392
1564.50 0.7392
1565.00 0.7390
1565.50 0.7410
1566.00 0.7413
1566.50 0.7411
1567.00 0.7418
1567.50 0.7433
1568.00 0.7437
1568.50 0.7442
1569.00 0.7470
1569.50 0.7497
1570.00 0.7506
1570.50 0.7524
1571.00 0.7551
1571.50 0.7570
1572.00 0.7578
1572.50 0.7607
1573.00 0.7648
1573.50 0.7668
1574.00 0.7687
1574.50 0.7685
1575.00 0.7680
1575.50 0.7661
1576.00 0.7649
1576.50 0.7659
1577.00 0.7662
1577.50 0.7650
1578.00 0.7654
1578.50 0.7684
1579.00 0.7702
1579.50 0.7716
1580.00 0.7741
1580.50 0.7753
1581.00 0.7752
1581.50 0.7758
1582.00 0.7774
1582.50 0.7782
1583.00 0.7783
1583.50 0.7792
1584.00 0.7808
1584.50 0.7795
1585.00 0.7777
1585.50 0.7771
1586.00 0.7766
1586.50 0.7748
1587.00 0.7733
1587.50 0.7736
1588.00 0.7724
1588.50 0.7729
1589.00 0.7738
1589.50 0.7755
1590.00 0.7761
1590.50 0.7756
1591.00 0.7763
1591.50 0.7772
1592.00 0.7764
1592.50 0.7785
1593.00 0.7812
1593.50 0.7842
1594.00 0.7856
1594.50 0.7836
1595.00 0.7820
1595.50 0.7797
1596.00 0.7768
1596.50 0.7760
1597.00 0.7750
1597.50 0.7722
1598.00 0.7702
1598.50 0.7696
1599.00 0.7684
1599.50 0.7666
1600.00 0.7654
1600.50 0.7651
1601.00 0.7639
1601.50 0.7622
1602.00 0.7618
1602.50 0.7607
1603.00 0.7587
1603.50 0.7565
1604.00 0.7556
1604.50 0.7544
1605.00 0.7521
1605.50 0.7505
1606.00 0.7491
1606.50 0.7472
1607.00 0.7445
1607.50 0.7427
1608.00 0.7413
1608.50 0.7394
1609.00 0.7373
1609.50 0.7360
1610.00 0.7354
1610.50 0.7336
1611.00 0.7323
1611.50 0.7329
1612.00 0.7315
1612.50 0.7294
1613.00 0.7282
1613.50 0.7272
1614.00 0.7257
1614.50 0.7240
1615.00 0.7227
1615.50 0.7217
1616.00 0.7200
1616.50 0.7191
1617.00 0.7198
1617.50 0.7199
1618.00 0.7190
1618.50 0.7187
1619.00 0.7186
1619.50 0.7179
1620.00 0.7175
1620.50 0.7176
1621.00 0.7181
1621.50 0.7176
1622.00 0.7174
1622.50 0.7190
1623.00 0.7200
1623.50 0.7206
1624.00 0.7214
1624.50 0.7233
1625.00 0.7244
1625.50 0.7247
1626.00 0.7267
1626.50 0.7305
1627.00 0.7332
1627.50 0.7359
1628.00 0.7399
1628.50 0.7454
1629.00 0.7503
1629.50 0.7554
1630.00 0.7615
1630.50 0.7617
1631.00 0.7606
1631.50 0.7608
1632.00 0.7612
1632.50 0.7612
1633.00 0.7603
1633.50 0.7608
1634.00 0.7615
1634.50 0.7613
1635.00 0.7623
1635.50 0.7638
1636.00 0.7644
1636.50 0.7643
1637.00 0.7650
1637.50 0.7662
1638.00 0.7662
1638.50 0.7650
1639.00 0.7651
1639.50 0.7652
1640.00 0.7636
1640.50 0.7624
1641.00 0.7621
1641.50 0.7612
1642.00 0.7588
1642.50 0.7586
1643.00 0.7588
1643.50 0.7582
1644.00 0.7566
1644.50 0.7556
1645.00 0.7550
1645.50 0.7531
1646.00 0.7504
1646.50 0.7505
1647.00 0.7493
1647.50 0.7466
1648.00 0.7453
1648.50 0.7442
1649.00 0.7415
1649.50 0.7391
1650.00 0.7375
1650.50 0.7358
1651.00 0.7330
1651.50 0.7301
1652.00 0.7288
1652.50 0.7280
1653.00 0.7259
1653.50 0.7247
1654.00 0.7249
1654.50 0.7251
1655.00 0.7247
1655.50 0.7262
1656.00 0.7279
1656.50 0.7254
1657.00 0.7239
1657.50 0.7235
1658.00 0.7226
1658.50 0.7200
1659.00 0.7170
1659.50 0.7164
1660.00 0.7144
1660.50 0.7142
1661.00 0.7157
1661.50 0.7183
1662.00 0.7191
1662.50 0.7198
1663.00 0.7233
1663.50 0.7254
1664.00 0.7263
1664.50 0.7275
1665.00 0.7299
1665.50 0.7308
1666.00 0.7314
1666.50 0.7312
1667.00 0.7318
1667.50 0.7309
1668.00 0.7296
1668.50 0.7302
1669.00 0.7301
1669.50 0.7284
1670.00 0.7280
1670.50 0.7287
1671.00 0.7281
1671.50 0.7267
1672.00 0.7269
1672.50 0.7284
1673.00 0.7281
1673.50 0.7281
1674.00 0.7291
1674.50 0.7303
1675.00 0.7298
1675.50 0.7301
1676.00 0.7321
1676.50 0.7318
1677.00 0.7303
1677.50 0.7307
1678.00 0.7316
1678.50 0.7305
1679.00 0.7301
1679.50 0.7308
1680.00 0.7309
1680.50 0.7294
1681.00 0.7292
1681.50 0.7298
1682.00 0.7297
1682.50 0.7276
1683.00 0.7273
1683.50 0.7275
1684.00 0.7257
1684.50 0.7247
1685.00 0.7250
1685.50 0.7248
1686.00 0.7231
1686.50 0.7242
1687.00 0.7259
1687.50 0.7262
1688.00 0.7264
1688.50 0.7297
1689.00 0.7330
1689.50 0.7351
1690.00 0.7372
1690.50 0.7372
1691.00 0.7376
1691.50 0.7366
1692.00 0.7357
1692.50 0.7362
1693.00 0.7354
1693.50 0.7336
1694.00 0.7337
1694.50 0.7358
1695.00 0.7362
1695.50 0.7370
1696.00 0.7389
1696.50 0.7405
1697.00 0.7408
1697.50 0.7419
1698.00 0.7438
1698.50 0.7442
1699.00 0.7436
1699.50 0.7443
1700.00 0.7450
1700.50 0.7453
1701.00 0.7451
1701.50 0.7457
1702.00 0.7463
1702.50 0.7459
1703.00 0.7454
1703.50 0.7458
1704.00 0.7459
1704.50 0.7448
1705.00 0.7441
1705.50 0.7439
1706.00 0.7425
1706.50 0.7390
1707.00 0.7363
1707.50 0.7332
1708.00 0.7300
1708.50 0.7269
1709.00 0.7244
1709.50 0.7221
1710.00 0.7190
1710.50 0.7187
1711.00 0.7185
1711.50 0.7182
1712.00 0.7169
1712.50 0.7157
1713.00 0.7153
1713.50 0.7137
1714.00 0.7125
1714.50 0.7124
1715.00 0.7123
1715.50 0.7118
1716.00 0.7113
1716.50 0.7109
1717.00 0.7110
1717.50 0.7105
1718.00 0.7099
1718.50 0.7095
1719.00 0.7092
1719.50 0.7083
1720.00 0.7075
1720.50 0.7075
1721.00 0.7068
1721.50 0.7058
1722.00 0.7052
1722.50 0.7059
1723.00 0.7057
1723.50 0.7054
1724.00 0.7056
1724.50 0.7078
1725.00 0.7086
1725.50 0.7106
1726.00 0.7128
1726.50 0.7137
1727.00 0.7142
1727.50 0.7157
1728.00 0.7174
1728.50 0.7183
1729.00 0.7184
1729.50 0.7198
1730.00 0.7210
1730.50 0.7210
1731.00 0.7205
1731.50 0.7214
1732.00 0.7217
1732.50 0.7215
1733.00 0.7215
1733.50 0.7227
1734.00 0.7224
1734.50 0.7221
1735.00 0.7227
1735.50 0.7226
1736.00 0.7226
1736.50 0.7227
1737.00 0.7239
1737.50 0.7246
1738.00 0.7248
1738.50 0.7250
1739.00 0.7263
1739.50 0.7266
1740.00 0.7264
1740.50 0.7259
1741.00 0.7261
1741.50 0.7249
1742.00 0.7237
1742.50 0.7239
1743.00 0.7232
1743.50 0.7220
1744.00 0.7212
1744.50 0.7186
1745.00 0.7157
1745.50 0.7117
1746.00 0.7088
1746.50 0.7074
1747.00 0.7046
1747.50 0.7018
1748.00 0.7006
1748.50 0.7002
1749.00 0.6988
1749.50 0.6986
1750.00 0.6984
1750.50 0.6956
1751.00 0.6921
1751.50 0.6897
1752.00 0.6874
1752.50 0.6846
1753.00 0.6819
1753.50 0.6805
1754.00 0.6788
1754.50 0.6770
1755.00 0.6762
1755.50 0.6756
1756.00 0.6743
1756.50 0.6726
1757.00 0.6718
1757.50 0.6715
1758.00 0.6702
1758.50 0.6691
1759.00 0.6695
1759.50 0.6694
1760.00 0.6688
1760.50 0.6672
1761.00 0.6669
1761.50 0.6656
1762.00 0.6638
1762.50 0.6633
1763.00 0.6636
1763.50 0.6622
1764.00 0.6615
1764.50 0.6638
1765.00 0.6662
1765.50 0.6673
1766.00 0.6695
1766.50 0.6702
1767.00 0.6697
1767.50 0.6688
1768.00 0.6691
1768.50 0.6693
1769.00 0.6682
1769.50 0.6673
1770.00 0.6677
1770.50 0.6684
1771.00 0.6678
1771.50 0.6687
1772.00 0.6701
1772.50 0.6702
1773.00 0.6703
1773.50 0.6712
1774.00 0.6718
1774.50 0.6733
1775.00 0.6747
1775.50 0.6770
1776.00 0.6793
1776.50 0.6795
1777.00 0.6805
1777.50 0.6822
1778.00 0.6830
1778.50 0.6824
1779.00 0.6824
1779.50 0.6832
1780.00 0.6829
1780.50 0.6829
1781.00 0.6842
1781.50 0.6852
1782.00 0.6854
1782.50 0.6865
1783.00 0.6879
1783.50 0.6891
1784.00 0.6893
1784.50 0.6898
1785.00 0.6911
1785.50 0.6910
1786.00 0.6910
1786.50 0.6917
1787.00 0.6918
1787.50 0.6916
1788.00 0.6913
1788.50 0.6917
1789.00 0.6919
1789.50 0.6907
1790.00 0.6904
1790.50 0.6901
1791.00 0.6894
1791.50 0.6882
1792.00 0.6877
1792.50 0.6884
1793.00 0.6880
1793.50 0.6881
1794.00 0.6890
1794.50 0.6908
1795.00 0.6920
1795.50 0.6936
1796.00 0.6953
1796.50 0.6962
1797.00 0.6957
1797.50 0.6970
1798.00 0.6980
1798.50 0.6980
1799.00 0.6971
1799.50 0.6976
1800.00 0.6980
1800.50 0.6974
1801.00 0.6975
1801.50 0.6980
1802.00 0.6979
1802.50 0.6979
1803.00 0.6983
1803.50 0.6994
1804.00 0.6999
1804.50 0.6991
1805.00 0.6988
1805.50 0.6989
1806.00 0.6977
1806.50 0.6969
1807.00 0.6965
1807.50 0.6959
1808.00 0.6946
1808.50 0.6937
1809.00 0.6928
1809.50 0.6918
1810.00 0.6907
1810.50 0.6919
1811.00 0.6941
1811.50 0.6952
1812.00 0.6962
1812.50 0.6961
1813.00 0.6960
1813.50 0.6944
1814.00 0.6945
1814.50 0.6937
1815.00 0.6925
1815.50 0.6908
1816.00 0.6899
1816.50 0.6891
1817.00 0.6884
1817.50 0.6869
1818.00 0.6863
1818.50 0.6853
1819.00 0.6833
1819.50 0.6815
1820.00 0.6806
1820.50 0.6794
1821.00 0.6771
1821.50 0.6759
1822.00 0.6749
1822.50 0.6745
1823.00 0.6744
1823.50 0.6749
1824.00 0.6748
1824.50 0.6731
1825.00 0.6709
1825.50 0.6697
1826.00 0.6688
1826.50 0.6666
1827.00 0.6654
1827.50 0.6646
1828.00 0.6627
1828.50 0.6627
1829.00 0.6633
1829.50 0.6645
1830.00 0.6642
1830.50 0.6646
1831.00 0.6654
1831.50 0.6661
1832.00 0.6660
1832.50 0.6667
1833.00 0.6672
1833.50 0.6681
1834.00 0.6672
1834.50 0.6685
1835.00 0.6699
1835.50 0.6703
1836.00 0.6709
1836.50 0.6723
1837.00 0.6735
1837.50 0.6737
1838.00 0.6746
1838.50 0.6755
1839.00 0.6764
1839.50 0.6760
1840.00 0.6765
1840.50 0.6776
1841.00 0.6784
1841.50 0.6781
1842.00 0.6794
1842.50 0.6809
1843.00 0.6814
1843.50 0.6831
1844.00 0.6850
1844.50 0.6848
1845.00 0.6844
1845.50 0.6851
1846.00 0.6858
1846.50 0.6851
1847.00 0.6845
1847.50 0.6847
1848.00 0.6844
1848.50 0.6843
1849.00 0.6843
1849.50 0.6850
1850.00 0.6847
1850.50 0.6834
1851.00 0.6831
1851.50 0.6831
1852.00 0.6820
1852.50 0.6811
1853.00 0.6811
1853.50 0.6807
1854.00 0.6795
1854.50 0.6791
1855.00 0.6792
1855.50 0.6790
1856.00 0.6774
1856.50 0.6779
1857.00 0.6784
1857.50 0.6783
1858.00 0.6778
1858.50 0.6772
1859.00 0.6766
1859.50 0.6751
1860.00 0.6741
1860.50 0.6727
1861.00 0.6710
1861.50 0.6690
1862.00 0.6674
1862.50 0.6671
1863.00 0.6667
1863.50 0.6652
1864.00 0.6651
1864.50 0.6651
1865.00 0.6644
1865.50 0.6637
1866.00 0.6646
1866.50 0.6643
1867.00 0.6645
1867.50 0.6646
1868.00 0.6659
1868.50 0.6653
1869.00 0.6646
1869.50 0.6649
1870.00 0.6650
1870.50 0.6657
1871.00 0.6661
1871.50 0.6679
1872.00 0.6691
1872.50 0.6688
1873.00 0.6697
1873.50 0.6710
1874.00 0.6709
1874.50 0.6716
1875.00 0.6726
1875.50 0.6736
1876.00 0.6741
1876.50 0.6738
1877.00 0.6740
1877.50 0.6748
1878.00 0.6741
1878.50 0.6753
1879.00 0.6771
1879.50 0.6775
1880.00 0.6782
1880.50 0.6793
1881.00 0.6799
1881.50 0.6794
1882.00 0.6798
1882.50 0.6798
1883.00 0.6788
1883.50 0.6779
1884.00 0.6777
1884.50 0.6764
1885.00 0.6752
1885.50 0.6735
1886.00 0.6728
1886.50 0.6728
1887.00 0.6720
1887.50 0.6716
1888.00 0.6720
1888.50 0.6720
1889.00 0.6719
1889.50 0.6719
1890.00 0.6724
1890.50 0.6723
1891.00 0.6723
1891.50 0.6725
1892.00 0.6731
1892.50 0.6725
1893.00 0.6717
1893.50 0.6717
1894.00 0.6713
1894.50 0.6707
1895.00 0.6708
1895.50 0.6709
1896.00 0.6702
1896.50 0.6698
1897.00 0.6700
1897.50 0.6700
1898.00 0.6693
1898.50 0.6684
1899.00 0.6677
1899.50 0.6669
1900.00 0.6659
1900.50 0.6652
1901.00 0.6647
1901.50 0.6638
1902.00 0.6627
1902.50 0.6626
1903.00 0.6628
1903.50 0.6623
1904.00 0.6622
1904.50 0.6617
1905.00 0.6613
1905.50 0.6604
1906.00 0.6600
1906.50 0.6600
1907.00 0.6590
1907.50 0.6588
1908.00 0.6583
1908.50 0.6603
1909.00 0.6615
1909.50 0.6629
1910.00 0.6652
1910.50 0.6656
1911.00 0.6657
1911.50 0.6662
1912.00 0.6667
1912.50 0.6676
1913.00 0.6675
1913.50 0.6687
1914.00 0.6698
1914.50 0.6695
1915.00 0.6692
1915.50 0.6695
1916.00 0.6697
1916.50 0.6695
1917.00 0.6698
1917.50 0.6711
1918.00 0.6708
1918.50 0.6707
1919.00 0.6721
1919.50 0.6729
1920.00 0.6734
1920.50 0.6728
1921.00 0.6741
1921.50 0.6735
1922.00 0.6733
1922.50 0.6736
1923.00 0.6750
1923.50 0.6756
1924.00 0.6758
1924.50 0.6773
1925.00 0.6789
1925.50 0.6795
1926.00 0.6797
1926.50 0.6802
1927.00 0.6799
1927.50 0.6786
1928.00 0.6783
1928.50 0.6782
1929.00 0.6771
1929.50 0.6756
1930.00 0.6748
1930.50 0.6742
1931.00 0.6729
1931.50 0.6708
1932.00 0.6702
1932.50 0.6704
1933.00 0.6686
1933.50 0.6686
1934.00 0.6685
1934.50 0.6676
1935.00 0.6660
1935.50 0.6658
1936.00 0.6654
1936.50 0.6648
1937.00 0.6633
1937.50 0.6636
1938.00 0.6630
1938.50 0.6604
1939.00 0.6582
1939.50 0.6568
1940.00 0.6544
1940.50 0.6516
1941.00 0.6504
1941.50 0.6487
1942.00 0.6463
1942.50 0.6444
1943.00 0.6429
1943.50 0.6416
1944.00 0.6393
1944.50 0.6374
1945.00 0.6367
1945.50 0.6348
1946.00 0.6327
1946.50 0.6311
1947.00 0.6302
1947.50 0.6277
1948.00 0.6256
1948.50 0.6257
1949.00 0.6252
1949.50 0.6241
1950.00 0.6240
1950.50 0.6234
1951.00 0.6220
1951.50 0.6203
1952.00 0.6193
1952.50 0.6191
1953.00 0.6173
1953.50 0.6159
1954.00 0.6157
1954.50 0.6155
1955.00 0.6138
1955.50 0.6134
1956.00 0.6139
1956.50 0.6142
1957.00 0.6143
1957.50 0.6156
1958.00 0.6171
1958.50 0.6164
1959.00 0.6163
1959.50 0.6176
1960.00 0.6179
1960.50 0.6171
1961.00 0.6163
1961.50 0.6171
1962.00 0.6164
1962.50 0.6168
1963.00 0.6184
1963.50 0.6206
1964.00 0.6207
1964.50 0.6220
1965.00 0.6243
1965.50 0.6264
1966.00 0.6271
1966.50 0.6288
1967.00 0.6311
1967.50 0.6324
1968.00 0.6332
1968.50 0.6349
1969.00 0.6369
1969.50 0.6375
1970.00 0.6382
1970.50 0.6405
1971.00 0.6420
1971.50 0.6424
1972.00 0.6442
1972.50 0.6468
1973.00 0.6482
1973.50 0.6490
1974.00 0.6514
1974.50 0.6538
1975.00 0.6552
1975.50 0.6566
1976.00 0.6593
1976.50 0.6618
1977.00 0.6629
1977.50 0.6653
1978.00 0.6682
1978.50 0.6704
1979.00 0.6721
1979.50 0.6753
1980.00 0.6780
1980.50 0.6780
1981.00 0.6787
1981.50 0.6805
1982.00 0.6814
1982.50 0.6823
1983.00 0.6838
1983.50 0.6861
1984.00 0.6876
1984.50 0.6858
1985.00 0.6855
1985.50 0.6854
1986.00 0.6832
1986.50 0.6823
1987.00 0.6824
1987.50 0.6823
1988.00 0.6803
1988.50 0.6815
1989.00 0.6831
1989.50 0.6834
1990.00 0.6830
1990.50 0.6816
1991.00 0.6802
1991.50 0.6779
1992.00 0.6751
1992.50 0.6744
1993.00 0.6729
1993.50 0.6697
1994.00 0.6679
1994.50 0.6684
1995.00 0.6676
1995.50 0.6661
1996.00 0.6659
1996.50 0.6652
1997.00 0.6635
1997.50 0.6621
1998.00 0.6618
1998.50 0.6603
1999.00 0.6578
1999.50 0.6556
2000.00 0.6550
2000.50 0.6516
2001.00 0.6494
2001.50 0.6482
2002.00 0.6458
2002.50 0.6435
2003.00 0.6428
2003.50 0.6415
2004.00 0.6397
2004.50 0.6381
2005.00 0.6374
2005.50 0.6366
2006.00 0.6349
2006.50 0.6340
2007.00 0.6337
2007.50 0.6323
2008.00 0.6309
2008.50 0.6307
2009.00 0.6305
2009.50 0.6296
2010.00 0.6291
2010.50 0.6291
2011.00 0.6291
2011.50 0.6287
2012.00 0.6290
2012.50 0.6292
2013.00 0.6298
2013.50 0.6291
2014.00 0.6300
2014.50 0.6310
2015.00 0.6312
2015.50 0.6316
2016.00 0.6332
2016.50 0.6337
2017.00 0.6338
2017.50 0.6341
2018.00 0.6351
2018.50 0.6359
2019.00 0.6371
2019.50 0.6383
2020.00 0.6402
2020.50 0.6419
2021.00 0.6434
2021.50 0.6452
2022.00 0.6479
2022.50 0.6505
2023.00 0.6531
2023.50 0.6563
2024.00 0.6595
2024.50 0.6609
2025.00 0.6632
2025.50 0.6656
2026.00 0.6671
2026.50 0.6692
2027.00 0.6713
2027.50 0.6735
2028.00 0.6755
2028.50 0.6783
2029.00 0.6813
2029.50 0.6842
2030.00 0.6863
2030.50 0.6884
2031.00 0.6902
2031.50 0.6919
2032.00 0.6930
2032.50 0.6942
2033.00 0.6954
2033.50 0.6963
2034.00 0.6971
2034.50 0.6984
2035.00 0.6992
2035.50 0.6998
2036.00 0.6999
2036.50 0.7007
2037.00 0.7008
2037.50 0.7004
2038.00 0.7005
2038.50 0.7002
2039.00 0.7000
2039.50 0.6990
2040.00 0.6985
2040.50 0.6981
2041.00 0.6977
2041.50 0.6966
2042.00 0.6961
2042.50 0.6953
2043.00 0.6944
2043.50 0.6937
2044.00 0.6932
2044.50 0.6930
2045.00 0.6930
2045.50 0.6931
2046.00 0.6933
2046.50 0.6925
2047.00 0.6914
2047.50 0.6906
2048.00 0.6897
2048.50 0.6890
2049.00 0.6881
2049.50 0.6877
2050.00 0.6875
2050.50 0.6860
2051.00 0.6852
2051.50 0.6847
2052.00 0.6836
2052.50 0.6830
2053.00 0.6827
2053.50 0.6823
2054.00 0.6815
2054.50 0.6819
2055.00 0.6825
2055.50 0.6831
2056.00 0.6834
2056.50 0.6830
2057.00 0.6827
2057.50 0.6820
2058.00 0.6810
2058.50 0.6807
2059.00 0.6805
2059.50 0.6796
2060.00 0.6795
2060.50 0.6791
2061.00 0.6787
2061.50 0.6784
2062.00 0.6780
2062.50 0.6778
2063.00 0.6773
2063.50 0.6767
2064.00 0.6765
2064.50 0.6757
2065.00 0.6752
2065.50 0.6745
2066.00 0.6748
2066.50 0.6751
2067.00 0.6748
2067.50 0.6747
2068.00 0.6755
2068.50 0.6753
2069.00 0.6757
2069.50 0.6766
2070.00 0.6773
2070.50 0.6774
2071.00 0.6780
2071.50 0.6787
2072.00 0.6799
2072.50 0.6806
2073.00 0.6812
2073.50 0.6825
2074.00 0.6831
2074.50 0.6822
2075.00 0.6817
2075.50 0.6816
2076.00 0.6806
2076.50 0.6808
2077.00 0.6812
2077.50 0.6813
2078.00 0.6814
2078.50 0.6822
2079.00 0.6836
2079.50 0.6844
2080.00 0.6850
2080.50 0.6850
2081.00 0.6856
2081.50 0.6851
2082.00 0.6851
2082.50 0.6858
2083.00 0.6861
2083.50 0.6861
2084.00 0.6866
2084.50 0.6869
2085.00 0.6869
2085.50 0.6873
2086.00 0.6869
2086.50 0.6875
2087.00 0.6877
2087.50 0.6877
2088.00 0.6886
2088.50 0.6888
2089.00 0.6882
2089.50 0.6883
2090.00 0.6884
2090.50 0.6894
2091.00 0.6901
2091.50 0.6914
2092.00 0.6925
2092.50 0.6928
2093.00 0.6932
2093.50 0.6940
2094.00 0.6949
2094.50 0.6942
2095.00 0.6933
2095.50 0.6934
2096.00 0.6920
2096.50 0.6908
2097.00 0.6912
2097.50 0.6909
2098.00 0.6896
2098.50 0.6908
2099.00 0.6918
2099.50 0.6927
2100.00 0.6931
2100.50 0.6939
2101.00 0.6947
2101.50 0.6949
2102.00 0.6951
2102.50 0.6941
2103.00 0.6937
2103.50 0.6923
2104.00 0.6911
2104.50 0.6911
2105.00 0.6904
2105.50 0.6891
2106.00 0.6890
2106.50 0.6888
2107.00 0.6881
2107.50 0.6871
2108.00 0.6872
2108.50 0.6873
2109.00 0.6867
2109.50 0.6868
2110.00 0.6873
2110.50 0.6873
2111.00 0.6866
2111.50 0.6869
2112.00 0.6873
2112.50 0.6869
2113.00 0.6865
2113.50 0.6870
2114.00 0.6873
2114.50 0.6867
2115.00 0.6866
2115.50 0.6876
2116.00 0.6872
2116.50 0.6865
2117.00 0.6863
2117.50 0.6864
2118.00 0.6853
2118.50 0.6845
2119.00 0.6849
2119.50 0.6852
2120.00 0.6843
2120.50 0.6850
2121.00 0.6862
2121.50 0.6860
2122.00 0.6859
2122.50 0.6879
2123.00 0.6889
2123.50 0.6893
2124.00 0.6906
2124.50 0.6925
2125.00 0.6947
2125.50 0.6960
2126.00 0.6979
2126.50 0.6986
2127.00 0.6982
2127.50 0.6974
2128.00 0.6982
2128.50 0.6979
2129.00 0.6973
2129.50 0.6972
2130.00 0.6974
2130.50 0.6970
2131.00 0.6963
2131.50 0.6964
2132.00 0.6965
2132.50 0.6964
2133.00 0.6968
2133.50 0.6973
2134.00 0.6983
2134.50 0.6988
2135.00 0.7002
2135.50 0.7025
2136.00 0.7033
2136.50 0.7035
2137.00 0.7048
2137.50 0.7064
2138.00 0.7060
2138.50 0.7067
2139.00 0.7083
2139.50 0.7088
2140.00 0.7083
2140.50 0.7097
2141.00 0.7108
2141.50 0.7118
2142.00 0.7119
2142.50 0.7120
2143.00 0.7119
2143.50 0.7103
2144.00 0.7092
2144.50 0.7090
2145.00 0.7083
2145.50 0.7062
2146.00 0.7058
2146.50 0.7050
2147.00 0.7033
2147.50 0.7015
2148.00 0.7010
2148.50 0.7008
2149.00 0.6994
2149.50 0.6977
2150.00 0.6978
2150.50 0.6978
2151.00 0.6972
2151.50 0.6975
2152.00 0.6987
2152.50 0.6974
2153.00 0.6954
2153.50 0.6956
2154.00 0.6953
2154.50 0.6951
2155.00 0.6956
2155.50 0.6969
2156.00 0.6974
2156.50 0.6964
2157.00 0.6964
2157.50 0.6974
2158.00 0.6967
2158.50 0.6936
2159.00 0.6925
2159.50 0.6916
2160.00 0.6887
2160.50 0.6893
2161.00 0.6913
2161.50 0.6916
2162.00 0.6913
2162.50 0.6927
2163.00 0.6943
2163.50 0.6945
2164.00 0.6948
2164.50 0.6957
2165.00 0.6969
2165.50 0.6960
2166.00 0.6960
2166.50 0.6959
2167.00 0.6952
2167.50 0.6929
2168.00 0.6926
2168.50 0.6926
2169.00 0.6909
2169.50 0.6891
2170.00 0.6895
2170.50 0.6895
2171.00 0.6890
2171.50 0.6885
2172.00 0.6894
2172.50 0.6902
2173.00 0.6903
2173.50 0.6912
2174.00 0.6932
2174.50 0.6929
2175.00 0.6924
2175.50 0.6939
2176.00 0.6950
2176.50 0.6944
2177.00 0.6943
2177.50 0.6958
2178.00 0.6958
2178.50 0.6931
2179.00 0.6915
2179.50 0.6914
2180.00 0.6899
2180.50 0.6869
2181.00 0.6854
2181.50 0.6848
2182.00 0.6815
2182.50 0.6813
2183.00 0.6822
2183.50 0.6819
2184.00 0.6803
2184.50 0.6814
2185.00 0.6835
2185.50 0.6836
2186.00 0.6839
2186.50 0.6828
2187.00 0.6813
2187.50 0.6786
2188.00 0.6760
2188.50 0.6758
2189.00 0.6751
2189.50 0.6727
2190.00 0.6718
2190.50 0.6747
2191.00 0.6753
2191.50 0.6765
2192.00 0.6794
2192.50 0.6801
2193.00 0.6795
2193.50 0.6795
2194.00 0.6808
2194.50 0.6795
2195.00 0.6769
2195.50 0.6751
2196.00 0.6746
2196.50 0.6719
2197.00 0.6679
2197.50 0.6662
2198.00 0.6653
2198.50 0.6618
2199.00 0.6595
2199.50 0.6587
2200.00 0.6569
2200.50 0.6562
2201.00 0.6573
2201.50 0.6592
2202.00 0.6598
2202.50 0.6606
2203.00 0.6632
2203.50 0.6658
2204.00 0.6666
2204.50 0.6676
2205.00 0.6705
2205.50 0.6719
2206.00 0.6720
2206.50 0.6731
2207.00 0.6753
2207.50 0.6759
2208.00 0.6758
2208.50 0.6773
2209.00 0.6789
2209.50 0.6783
2210.00 0.6786
2210.50 0.6803
2211.00 0.6815
2211.50 0.6813
2212.00 0.6820
2212.50 0.6843
2213.00 0.6847
2213.50 0.6845
2214.00 0.6863
2214.50 0.6875
2215.00 0.6860
2215.50 0.6852
2216.00 0.6861
2216.50 0.6868
2217.00 0.6858
2217.50 0.6865
2218.00 0.6877
2218.50 0.6875
2219.00 0.6859
2219.50 0.6867
2220.00 0.6873
2220.50 0.6857
2221.00 0.6849
2221.50 0.6858
2222.00 0.6852
2222.50 0.6844
2223.00 0.6850
2223.50 0.6864
2224.00 0.6860
2224.50 0.6846
2225.00 0.6844
2225.50 0.6844
2226.00 0.6825
2226.50 0.6816
2227.00 0.6824
2227.50 0.6825
2228.00 0.6805
2228.50 0.6802
2229.00 0.6810
2229.50 0.6796
2230.00 0.6786
2230.50 0.6776
2231.00 0.6769
2231.50 0.6742
2232.00 0.6720
2232.50 0.6714
2233.00 0.6706
2233.50 0.6677
2234.00 0.6661
2234.50 0.6652
2235.00 0.6631
2235.50 0.6597
2236.00 0.6585
2236.50 0.6580
2237.00 0.6548
2237.50 0.6527
2238.00 0.6520
2238.50 0.6505
2239.00 0.6479
2239.50 0.6463
2240.00 0.6453
2240.50 0.6436
2241.00 0.6405
2241.50 0.6393
2242.00 0.6387
2242.50 0.6363
2243.00 0.6349
2243.50 0.6345
2244.00 0.6333
2244.50 0.6303
2245.00 0.6289
2245.50 0.6283
2246.00 0.6262
2246.50 0.6232
2247.00 0.6215
2247.50 0.6201
2248.00 0.6171
2248.50 0.6152
2249.00 0.6150
2249.50 0.6138
2250.00 0.6114
2250.50 0.6091
2251.00 0.6082
2251.50 0.6058
2252.00 0.6033
2252.50 0.6021
2253.00 0.6015
2253.50 0.5989
2254.00 0.5976
2254.50 0.5965
2255.00 0.5959
2255.50 0.5937
2256.00 0.5923
2256.50 0.5921
2257.00 0.5910
2257.50 0.5893
2258.00 0.5889
2258.50 0.5896
2259.00 0.5885
2259.50 0.5878
2260.00 0.5882
2260.50 0.5881
2261.00 0.5865
2261.50 0.5862
2262.00 0.5862
2262.50 0.5857
2263.00 0.5837
2263.50 0.5832
2264.00 0.5840
2264.50 0.5831
2265.00 0.5822
2265.50 0.5833
2266.00 0.5837
2266.50 0.5835
2267.00 0.5844
2267.50 0.5861
2268.00 0.5871
2268.50 0.5872
2269.00 0.5885
2269.50 0.5903
2270.00 0.5912
2270.50 0.5917
2271.00 0.5937
2271.50 0.5956
2272.00 0.5964
2272.50 0.5972
2273.00 0.5998
2273.50 0.6015
2274.00 0.6023
2274.50 0.6042
2275.00 0.6072
2275.50 0.6085
2276.00 0.6101
2276.50 0.6131
2277.00 0.6159
2277.50 0.6178
2278.00 0.6201
2278.50 0.6233
2279.00 0.6264
2279.50 0.6277
2280.00 0.6305
2280.50 0.6329
2281.00 0.6333
2281.50 0.6338
2282.00 0.6356
2282.50 0.6391
2283.00 0.6410
2283.50 0.6435
2284.00 0.6472
2284.50 0.6507
2285.00 0.6535
2285.50 0.6567
2286.00 0.6612
2286.50 0.6634
2287.00 0.6647
2287.50 0.6677
2288.00 0.6708
2288.50 0.6726
2289.00 0.6745
2289.50 0.6779
2290.00 0.6802
2290.50 0.6803
2291.00 0.6818
2291.50 0.6839
2292.00 0.6843
2292.50 0.6843
2293.00 0.6852
2293.50 0.6861
2294.00 0.6858
2294.50 0.6863
2295.00 0.6882
2295.50 0.6897
2296.00 0.6891
2296.50 0.6896
2297.00 0.6904
2297.50 0.6901
2298.00 0.6892
2298.50 0.6890
2299.00 0.6884
2299.50 0.6866
2300.00 0.6848
2300.50 0.6841
2301.00 0.6831
2301.50 0.6807
2302.00 0.6786
2302.50 0.6794
2303.00 0.6782
2303.50 0.6761
2304.00 0.6756
2304.50 0.6753
2305.00 0.6732
2305.50 0.6719
2306.00 0.6715
2306.50 0.6698
2307.00 0.6674
2307.50 0.6657
2308.00 0.6648
2308.50 0.6637
2309.00 0.6611
2309.50 0.6600
2310.00 0.6596
2310.50 0.6568
2311.00 0.6545
2311.50 0.6539
2312.00 0.6526
2312.50 0.6490
2313.00 0.6470
2313.50 0.6453
2314.00 0.6427
2314.50 0.6400
2315.00 0.6381
2315.50 0.6371
2316.00 0.6345
2316.50 0.6321
2317.00 0.6310
2317.50 0.6299
2318.00 0.6273
2318.50 0.6255
2319.00 0.6244
2319.50 0.6224
2320.00 0.6201
2320.50 0.6184
2321.00 0.6176
2321.50 0.6153
2322.00 0.6129
2322.50 0.6119
2323.00 0.6111
2323.50 0.6092
2324.00 0.6072
2324.50 0.6074
2325.00 0.6069
2325.50 0.6050
2326.00 0.6045
2326.50 0.6050
2327.00 0.6043
2327.50 0.6038
2328.00 0.6041
2328.50 0.6038
2329.00 0.6025
2329.50 0.6016
2330.00 0.6020
2330.50 0.6019
2331.00 0.6003
2331.50 0.5996
2332.00 0.6001
2332.50 0.5995
2333.00 0.5989
2333.50 0.5994
2334.00 0.6004
2334.50 0.5996
2335.00 0.5995
2335.50 0.6004
2336.00 0.6014
2336.50 0.6012
2337.00 0.6012
2337.50 0.6028
2338.00 0.6030
2338.50 0.6030
2339.00 0.6041
2339.50 0.6064
2340.00 0.6067
2340.50 0.6077
2341.00 0.6099
2341.50 0.6119
2342.00 0.6132
2342.50 0.6144
2343.00 0.6167
2343.50 0.6180
2344.00 0.6185
2344.50 0.6205
2345.00 0.6234
2345.50 0.6249
2346.00 0.6259
2346.50 0.6274
2347.00 0.6291
2347.50 0.6288
2348.00 0.6295
2348.50 0.6318
2349.00 0.6332
2349.50 0.6332
2350.00 0.6345
2350.50 0.6373
2351.00 0.6391
2351.50 0.6403
2352.00 0.6430
2352.50 0.6450
2353.00 0.6458
2353.50 0.6461
2354.00 0.6483
2354.50 0.6493
2355.00 0.6496
2355.50 0.6507
2356.00 0.6525
2356.50 0.6520
2357.00 0.6516
2357.50 0.6517
2358.00 0.6524
2358.50 0.6525
2359.00 0.6517
2359.50 0.6530
2360.00 0.6538
2360.50 0.6541
2361.00 0.6549
2361.50 0.6576
2362.00 0.6584
2362.50 0.6576
2363.00 0.6578
2363.50 0.6585
2364.00 0.6580
2364.50 0.6571
2365.00 0.6577
2365.50 0.6580
2366.00 0.6566
2366.50 0.6564
2367.00 0.6575
2367.50 0.6573
2368.00 0.6563
2368.50 0.6552
2369.00 0.6551
2369.50 0.6528
2370.00 0.6509
2370.50 0.6502
2371.00 0.6497
2371.50 0.6478
2372.00 0.6459
2372.50 0.6465
2373.00 0.6463
2373.50 0.6450
2374.00 0.6450
2374.50 0.6452
2375.00 0.6441
2375.50 0.6426
2376.00 0.6418
2376.50 0.6409
2377.00 0.6381
2377.50 0.6363
2378.00 0.6352
2378.50 0.6346
2379.00 0.6331
2379.50 0.6329
2380.00 0.6330
2380.50 0.6337
2381.00 0.6331
2381.50 0.6342
2382.00 0.6355
2382.50 0.6341
2383.00 0.6330
2383.50 0.6331
2384.00 0.6328
2384.50 0.6313
2385.00 0.6305
2385.50 0.6310
2386.00 0.6302
2386.50 0.6296
2387.00 0.6296
2387.50 0.6299
2388.00 0.6294
2388.50 0.6286
2389.00 0.6299
2389.50 0.6305
2390.00 0.6303
2390.50 0.6309
2391.00 0.6333
2391.50 0.6342
2392.00 0.6346
2392.50 0.6344
2393.00 0.6351
2393.50 0.6339
2394.00 0.6331
2394.50 0.6321
2395.00 0.6315
2395.50 0.6295
2396.00 0.6278
2396.50 0.6288
2397.00 0.6287
2397.50 0.6280
2398.00 0.6278
2398.50 0.6290
2399.00 0.6279
2399.50 0.6273
2400.00 0.6276
2400.50 0.6277
2401.00 0.6263
2401.50 0.6253
2402.00 0.6253
2402.50 0.6256
2403.00 0.6240
2403.50 0.6236
2404.00 0.6242
2404.50 0.6233
2405.00 0.6216
2405.50 0.6213
2406.00 0.6214
2406.50 0.6192
2407.00 0.6171
2407.50 0.6164
2408.00 0.6150
2408.50 0.6135
2409.00 0.6124
2409.50 0.6124
2410.00 0.6112
2410.50 0.6085
2411.00 0.6075
2411.50 0.6066
2412.00 0.6040
2412.50 0.6030
2413.00 0.6026
2413.50 0.6019
2414.00 0.6001
2414.50 0.5986
2415.00 0.5983
2415.50 0.5965
2416.00 0.5941
2416.50 0.5919
2417.00 0.5903
2417.50 0.5872
2418.00 0.5838
2418.50 0.5825
2419.00 0.5809
2419.50 0.5780
2420.00 0.5757
2420.50 0.5743
2421.00 0.5715
2421.50 0.5681
2422.00 0.5661
2422.50 0.5642
2423.00 0.5610
2423.50 0.5584
2424.00 0.5562
2424.50 0.5551
2425.00 0.5521
2425.50 0.5500
2426.00 0.5491
2426.50 0.5472
2427.00 0.5442
2427.50 0.5427
2428.00 0.5418
2428.50 0.5392
2429.00 0.5370
2429.50 0.5362
2430.00 0.5349
2430.50 0.5325
2431.00 0.5307
2431.50 0.5303
2432.00 0.5286
2432.50 0.5265
2433.00 0.5254
2433.50 0.5253
2434.00 0.5236
2434.50 0.5214
2435.00 0.5211
2435.50 0.5204
2436.00 0.5187
2436.50 0.5161
2437.00 0.5150
2437.50 0.5130
2438.00 0.5104
2438.50 0.5095
2439.00 0.5098
2439.50 0.5089
2440.00 0.5077
2440.50 0.5076
2441.00 0.5078
2441.50 0.5065
2442.00 0.5058
2442.50 0.5059
2443.00 0.5052
2443.50 0.5041
2444.00 0.5032
2444.50 0.5046
2445.00 0.5047
2445.50 0.5048
2446.00 0.5060
2446.50 0.5071
2447.00 0.5072
2447.50 0.5070
2448.00 0.5086
2448.50 0.5091
2449.00 0.5085
2449.50 0.5087
2450.00 0.5098
2450.50 0.5102
2451.00 0.5103
2451.50 0.5117
2452.00 0.5132
2452.50 0.5142
2453.00 0.5149
2453.50 0.5173
2454.00 0.5191
2454.50 0.5202
2455.00 0.5216
2455.50 0.5241
2456.00 0.5257
2456.50 0.5258
2457.00 0.5273
2457.50 0.5290
2458.00 0.5296
2458.50 0.5291
2459.00 0.5301
2459.50 0.5306
2460.00 0.5299
2460.50 0.5297
2461.00 0.5305
2461.50 0.5307
2462.00 0.5295
2462.50 0.5295
2463.00 0.5305
2463.50 0.5296
2464.00 0.5286
2464.50 0.5298
2465.00 0.5305
2465.50 0.5300
2466.00 0.5298
2466.50 0.5316
2467.00 0.5323
2467.50 0.5322
2468.00 0.5333
2468.50 0.5338
2469.00 0.5337
2469.50 0.5327
2470.00 0.5328
2470.50 0.5328
2471.00 0.5310
2471.50 0.5296
2472.00 0.5297
2472.50 0.5281
2473.00 0.5261
2473.50 0.5244
2474.00 0.5236
2474.50 0.5220
2475.00 0.5195
2475.50 0.5180
2476.00 0.5170
2476.50 0.5147
2477.00 0.5124
2477.50 0.5114
2478.00 0.5097
2478.50 0.5074
2479.00 0.5061
2479.50 0.5052
2480.00 0.5034
2480.50 0.5014
2481.00 0.4996
2481.50 0.4983
2482.00 0.4961
2482.50 0.4940
2483.00 0.4925
2483.50 0.4911
2484.00 0.4884
2484.50 0.4875
2485.00 0.4873
2485.50 0.4865
2486.00 0.4852
2486.50 0.4852
2487.00 0.4849
2487.50 0.4844
2488.00 0.4839
2488.50 0.4837
2489.00 0.4831
2489.50 0.4819
2490.00 0.4813
2490.50 0.4825
2491.00 0.4829
2491.50 0.4833
2492.00 0.4843
2492.50 0.4851
2493.00 0.4863
2493.50 0.4872
2494.00 0.4891
2494.50 0.4905
2495.00 0.4919
2495.50 0.4931
2496.00 0.4946
2496.50 0.4966
2497.00 0.4979
2497.50 0.4989
2498.00 0.5008
2498.50 0.5015
2499.00 0.5016
2499.50 0.5025
2500.00 0.5039
2500.50 0.5041
2501.00 0.5045
2501.50 0.5052
2502.00 0.5049
2502.50 0.5043
2503.00 0.5030
2503.50 0.5019
2504.00 0.4999
2504.50 0.4974
2505.00 0.4951
2505.50 0.4919
2506.00 0.4874
2506.50 0.4816
2507.00 0.4750
2507.50 0.4683
2508.00 0.4603
2508.50 0.4512
2509.00 0.4415
2509.50 0.4305
2510.00 0.4190
2510.50 0.4073
2511.00 0.3958
2511.50 0.3837
2512.00 0.3700
2512.50 0.3562
2513.00 0.3427
2513.50 0.3282
2514.00 0.3136
2514.50 0.2997
2515.00 0.2854
2515.50 0.2701
2516.00 0.2555
2516.50 0.2408
2517.00 0.2269
2517.50 0.2134
2518.00 0.2003
2518.50 0.1882
2519.00 0.1765
2519.50 0.1653
2520.00 0.1551
2520.50 0.1456
2521.00 0.1363
2521.50 0.1273
2522.00 0.1191
2522.50 0.1112
2523.00 0.1035
2523.50 0.0964
2524.00 0.0898
2524.50 0.0836
2525.00 0.0775
2525.50 0.0719
2526.00 0.0670
2526.50 0.0625
2527.00 0.0585
2527.50 0.0549
2528.00 0.0515
2528.50 0.0482
2529.00 0.0450
2529.50 0.0420
2530.00 0.0393
2530.50 0.0366
2531.00 0.0342
2531.50 0.0319
2532.00 0.0296
2532.50 0.0274
2533.00 0.0255
2533.50 0.0237
2534.00 0.0220
2534.50 0.0205
2535.00 0.0191
2535.50 0.0179
2536.00 0.0167
2536.50 0.0156
2537.00 0.0147
2537.50 0.0138
2538.00 0.0130
2538.50 0.0122
2539.00 0.0116
2539.50 0.0111
2540.00 0.0105
2540.50 0.0099
2541.00 0.0095
2541.50 0.0089
2542.00 0.0083
2542.50 0.0079
2543.00 0.0074
2543.50 0.0069
2544.00 0.0064
2544.50 0.0060
2545.00 0.0056
2545.50 0.0053
2546.00 0.0051
2546.50 0.0048
2547.00 0.0045
2547.50 0.0043
2548.00 0.0041
2548.50 0.0038
2549.00 0.0036
2549.50 0.0034
2550.00 0.0032
2550.50 0.0030
2551.00 0.0028
2551.50 0.0027
2552.00 0.0025
2552.50 0.0024
2553.00 0.0022
2553.50 0.0022
2554.00 0.0020
2554.50 0.0019
2555.00 0.0019
2555.50 0.0018
2556.00 0.0017
2556.50 0.0016
2557.00 0.0016
2557.50 0.0015
2558.00 0.0015
2558.50 0.0014
2559.00 0.0014
2559.50 0.0014
2560.00 0.0013
2560.50 0.0012
2561.00 0.0012
2561.50 0.0011
2562.00 0.0010
2562.50 0.0010
2563.00 0.0009
2563.50 0.0009
2564.00 0.0008
2564.50 0.0007
2565.00 0.0007
2565.50 0.0007
2566.00 0.0007
2566.50 0.0006
2567.00 0.0006
2567.50 0.0006
2568.00 0.0006
2568.50 0.0006
2569.00 0.0005
2569.50 0.0005
2570.00 0.0005
2570.50 0.0005
2571.00 0.0005
2571.50 0.0005
2572.00 0.0004
2572.50 0.0004
2573.00 0.0004
2573.50 0.0004
2574.00 0.0004
2574.50 0.0003
2575.00 0.0003
2575.50 0.0003
2576.00 0.0003
2576.50 0.0003
2577.00 0.0003
2577.50 0.0003
2578.00 0.0003
2578.50 0.0002
2579.00 0.0002
2579.50 0.0002
2580.00 0.0002
2580.50 0.0002
2581.00 0.0002
2581.50 0.0002
2582.00 0.0002
2582.50 0.0002
2583.00 0.0002
2583.50 0.0002
2584.00 0.0002
2584.50 0.0002
2585.00 0.0002
2585.50 0.0002
2586.00 0.0002
2586.50 0.0002
2587.00 0.0002
2587.50 0.0001
2588.00 0.0002
2588.50 0.0001
2589.00 0.0001
2589.50 0.0001
2590.00 0.0001
2590.50 0.0002
2591.00 0.0001
2591.50 0.0002
2592.00 0.0001
2592.50 0.0002
2593.00 0.0001
2593.50 0.0001
2594.00 0.0001
2594.50 0.0001
2595.00 0.0001
2595.50 0.0001
2596.00 0.0001
2596.50 0.0001
2597.00 0.0001
2597.50 0.0001
2598.00 0.0001
2598.50 0.0001
2599.00 0.0001
2599.50 0.0001
